Folder: ML-Classification-NIR-PolymerID/output

Note: README.md
# NIR Polymer Classification — AI-Aided Identification for Chemical Recycling

**Imperial College London — ID1: Informing Chemical Recycling Strategies using AI-Aided Polymer Identification**

Machine learning pipeline for identifying 15 polymer types from near-infrared (NIR) spectral data collected using a PlasTell Desktop spectrophotometer. Achieves **97% test accuracy** with optimised kNN (k=1) on cleaned data, and **95.9% accuracy** when addressing class imbalance with SMOTE oversampling.

---

## Context

Only ~9% of plastic ever produced has been recycled. A major barrier is **sorting accuracy** — contamination from misidentified polymers (e.g., PVC in a PET recycling stream) can ruin entire batches. NIR spectroscopy provides non-destructive polymer fingerprinting in under a second, but raw spectra require systematic processing and trained classifiers to be useful at scale.

This project builds the complete pipeline from raw spectral data to polymer identification, including data cleaning, dark-plastic separation, model training, and unknown sample classification.

---

## How the PlasTell Spectrometer Works

The PlasTell Desktop uses **transmittance-reflectance (transflectance) NIR spectroscopy** operating at 1550–1950 nm with 128 wavelength channels:

- **Two tungsten halogen lamps** (upper for reflectance, lower for transmittance) and an **InGaAs detector**
- NIR light is absorbed by molecular bond vibrations — specifically **C–H, O–H, and N–H overtone and combination bands** — producing polymer-specific absorption fingerprints
- The **Beer-Lambert law** (A = ε × c × l) governs absorption: band depth depends on the material's absorptivity (ε), concentration (c), and optical path length (l = sample thickness)
- For transparent/thin samples, the device uses transflectance mode (light passes through, reflects, and returns), effectively doubling the path length

**Limitation — material thickness:** Thin films (< 1 mm) produce weaker spectral features due to shorter path lengths. Very thin samples (< 20 μm) can produce flat, featureless spectra indistinguishable from dark/opaque plastics. Mitigation: fold or stack thin films before scanning.

---

## Pipeline Overview

```
Raw PlasTell CSV (334 spectra) + Lab Reference CSV (335 spectra)
    │
    ├── Activity 2: Data Processing
    │   ├── 2.01  Explore class distribution (15 polymers, PET max=37, LDPE min=6)
    │   ├── 2.02  Filter to label + spectrum columns
    │   ├── 2.03  Transpose to wavelength × spectra matrix (128 × 334)
    │   ├── 2.04  Combine both sources → 669 spectra
    │   ├── 2.05  Check class balance (PMMA=143, TPU=15, ~10:1 ratio)
    │   ├── 2.06  SHA-256 duplicate detection → 666 unique spectra
    │   └── 2.07  Repair invalid values via linear interpolation → 666 clean spectra
    │
    ├── Activity 3: Spectral Exploration & Outlier Detection
    │   ├── 3.01  Mean ± std spectra per polymer (666 spectra)
    │   └── 3.02  Colour-based dark/light separation → 86 dark re

File: 3.01_averaged-data.csv
Wavelength (nm),ABS_mean,ABS_std,HDPE_mean,HDPE_std,LDPE_mean,LDPE_std,PA6_mean,PA6_std,PA66_mean,PA66_std,PC_mean,PC_std,PET_mean,PET_std,PMMA_mean,PMMA_std,PP_mean,PP_std,PS_mean,PS_std,PVC_mean,PVC_std
1550.0,59114.0,1519.82,46655.04,15608.8,50746.7,6018.14,129.0,148.306,371.1,414.593,64633.2,103.302,42134.1,19610.5,44593,23807.4,44820.9,22445.6,59699.5,3250.87,47300.4,23918.1
1559.45,61690.2,1263.84,45508.08,19501.4,51139.7,7103.08,1814.3,690.1,2675.45,1226.2,64519.9,86.2633,41030.9,20529.8,45189.9,23608.3,45082.0,22423.2,57731.9,5644.03,47792.4,23874.6
1568.9,64569.0,505.455,45956.4,22906.7,53090.1,7865.87,8578.2,2079.42,12759.5,3041.42,64506.9,69.9335,44560.8,18252.2,48344.6,19836.1,48929.4,19122.9,56456.3,9572.11,50965.8,20337
1578.35,65483.4,103.2,47845.7,22058,56030.6,6292.1,17584.3,2697.38,25931.55,3661.86,65236.1,41.0287,51693.4,14198.8,53526,14570.9,54785.1,14368.5,55938.1,11472.2,55245.5,14879.5
1587.8,64849.6,312.501,52128.0,18091.4,59160.3,2990.61,25510.3,2434.05,36953.4,3618.86,65401.9,25.2062,57883.1,9753.65,58410.4,9956.71,59610.9,10044.2,56311.7,11060.1,58889.3,9549.39
1597.24,64045.8,384.405,55539.16,14677.8,61672.0,1052.15,30457.1,2197.83,42970.6,4136.12,63444.6,100.494,59176.2,6923.49,60213.1,7169.25,61235.6,7300.29,56761.7,10546.2,60723.5,6400.46
1606.69,61995.4,540.511,57111.84,13994.2,63086.9,1100.25,33251.4,2501.77,45151.95,4226.16,59772.6,150.316,56894.1,5827.74,58290.9,5874.53,60425.3,6143.85,55114.9,10626.8,60703.7,5675.25
1616.14,55945.8,759.738,56902.2,14551.3,63542.7,1220.52,36490.2,2902.62,47129.9,3424.06,55625.6,173.346,55156.5,6229.08,54307.2,7417.8,59486,5949.72,49554.3,9553,59868.2,6137.66
1625.59,45798.2,920.468,56416.12,14527.6,63728.2,528.495,41789.9,3105.27,51401.1,2421.05,50254.6,185.188,53899.8,6870.15,51630.3,7198.15,59148.3,5873.34,40956.8,6123.84,59412.9,6472.1
1635.04,35370.4,1037.68,56873.92,14351.3,64257.5,657.771,48040.3,3599.94,57184.05,2860.3,41278.9,185.568,47727.8,5972.82,49520.8,7088.5,58193.6,5888.44,32600.3,2661.64,59502.5,6430.08
1644.49,28081.6,1087.86,57721.12,14857,64911.3,348.883,52710.4,4390.77,61694.7,3945.03,28316.5,158.585,33362.4,4634.22,45191.8,6956.01,56106,6979,26813.1,3408.41,59098.6,6412.35
1653.94,22931.4,987.667,57315.48,15227.7,64700.5,1550.44,54643.5,4953.59,63050.85,4544.43,14696.7,99.971,15996.8,7867.02,36513.6,7785.6,54290.8,9228.84,22454.5,3877.94,57162.9,6507.08
1663.39,16540.4,730.742,55105.24,14098,62965.3,2176.77,54754.8,5041.93,61575.35,4713.43,4717.43,35.9974,5614.72,10961.5,24901.2,10655.7,53643.7,11387.7,16670.0,3234.72,53785.7,6311.6
1672.83,8400.4,399.717,52371.0,11762.8,60103.3,2126.18,53730.5,4774.44,58585.15,4466.73,289.071,4.89116,7334.56,11036.5,14701.2,14244.9,52167.5,11814,8971.73,2247.31,49666.7,5382.34
1682.28,1916.6,136.008,50105.32,9596.3,56471.5,2724.7,50086.1,4298.14,54679.55,4147.39,988.214,19.9506,17036.6,10690.7,9580.36,16671.8,46661.5,9660.5,2387.8,1052.69,44611.2,4117.63
1691.73,0.0,0.0,46658.36,7654.74,50598.4,4225.86,41851.1,3771.45,49651.15,4774.31,5910.86,68.8164,26239.9,11640.4,9525.74,17359.8,36613.1,7509.14,76.2667,151.345,37403,5900.61
1701.18,1596.6,164.128,38947.52,5390.5,39855.1,4609.39,30177.4,3465.6,43809.75,6248.61,13745.5,112.002,29676.3,11304.8,11484.5,16984.9,25176.3,10144.7,1816.13,683.329,27776.1,10618.2
1710.63,3688.8,629.804,26760.92,6969.17,24205.2,3185.65,19906.8,3504.66,38803.85,7504.52,21818.1,133.788,28192.2,9464.22,12702.4,16569.2,16237.3,14464.1,4887.47,1726.49,18066,15362.9
1720.08,5249.4,1565.23,14875.04,12790.1,8739.07,1578.5,15524.3,3645.14,36729.45,8120.79,27363.9,138.552,26326.3,8973.78,13389.7,16621.1,11571.5,17756.5,7779.4,2835.31,11931.7,18910.8
1729.53,7469.4,2633.45,9351.6,17628.2,513.667,438.8,16982.0,3632.07,38323.75,8572.7,30297.1,136.556,28184.1,9753.09,15842.4,16983.1,10934,20137.2,11440.7,3388.09,11093.5,21189.5
1738.98,10714.2,3214.13,11523.24,20304.7,1911.6,644.509,20409.1,3610.69,42114.1,9330.74,33199.4,134.734,34517.9,9806.59,21342.4,17240.6,13397.6,21936.5,16606.1,4032.45,13784.5,22803.2
1748.43,13404.8,3056.32,16803.0,21931.4,8202.67,947.648,22719.0,3537.39,45524.5,10263.9,37872.0,136.686,42489.2,9106.11,28478.9,17052.8,17590.8,22804.5,21559.9,4994.04,16733.3,24072.4
1757.87,14473.2,2547.22,19986.52,22849.4,12836.3,1146.92,24422.9,3401.56,46987.5,11044.1,43182.1,143.953,48466.3,8221.88,34633.1,16191.8,21611.4,22395.7,23960.9,5545.28,18291.5,24513.1
1767.32,15284.0,2239.26,20626.28,22192.1,14334.2,1465.68,27688.0,3260.72,46997.0,11349.4,47162.5,153.976,51561.2,7308.48,38572,14700.3,24214.3,21097.1,24170.4,5405.01,19232.1,23571.1
1776.77,17837.4,2251.82,22012.56,20197.2,16345.8,2076.39,32866.3,2974.62,47046.55,11177.6,49876.6,163.876,53888.4,6280.71,41110.5,12978.6,25991.9,19747.7,25030.0,5104.84,20880.1,21564.6
1786.22,21909.6,2296.68,25676.16,18419.4,21323.9,2951.2,38052.4,2606.04,47663.1,10744.5,52670.3,174.939,57017.8,5188.43,43581.4,11286.2,28276.6,18739.8,28096.1,5344.57,23290.3,19339.4
1795.67,25405.4,2177.9,28984.68,17571.9,26636.3,3116.49,41586.8,2153.97,47787.45,10245,55445.9,186.411,59471.3,4405.29,46456.0,9356.85,30833.3,17758.2,31584.9,5829.28,25454.7,17135.9
1805.12,27314.6,2035.78,28802.16,16584.8,28207.0,3221.02,43724.3,1687.47,46155.65,9800.7,56658.4,197.005,59047.2,3476.8,49539.7,6853.93,31791.5,16404,32942.8,5673.79,26651.5,14434.9
1814.57,28862.8,2061.71,25848.12,14539.8,26228.3,4245.23,45623.4,1597.81,42908.2,9299.73,56009.6,204.196,56624.4,2780.1,52624.8,5329.28,30271.5,14739.9,32360.5,5028.8,27017.7,11040
1824.02,31355.0,2176.93,23814.12,12119.6,24941.5,5869.28,47777.9,1750.47,39451.9,8625.72,55294.1,200.024,55508.2,3870.29,55288.4,7167.24,28010.8,13096.2,32293.1,5000.58,27006.3,7835.84
1833.46,34165.6,2125.69,24832.24,10244.8,27180.8,6892.83,50171.7,1643.27,36892.2,7944.97,55961.1,180.186,57011.2,5137.35,56599.9,9478.06,27531.4,11417.5,33898.5,5468.07,26858,5743.09
1842.91,35876.2,1840.85,27619.0,8533.95,31482.3,7056.5,53261.8,1312.3,35135.05,7435.48,57345.6,155.769,58925.7,6294.38,56014.3,10698.8,29343.1,9421.11,35649.0,5679.2,26748.7,4629.89
1852.36,36663.8,1520.08,30233.48,6544.57,35175.5,7124.23,57645.8,918.758,33627.65,7151.2,58182.0,142.737,59164.0,7679.96,54492.8,11761.5,31931.1,7409.44,35973.9,5533.22,27082.7,4571.44
1861.81,38195.6,1340.1,32839.28,5924.92,38172.4,7337.8,62561.6,414.792,32374.8,6991.48,58447.6,140.365,58684.2,9143.39,53667.5,13567.7,34097.2,6293.13,35866.1,5497.96,28314.4,6171.66
1871.26,41118.2,1241.38,36561.88,6946.59,42005.6,6867.88,65483.8,50.2908,31639.45,6685.4,58396.8,137.713,58917.2,9811.46,53410.2,15194.9,36088.1,6082.69,37608.3,5558.14,30492.5,8356.07
1880.71,43894.0,1079.3,40785.32,7768.23,46412.7,5445.73,63754.9,296.218,30860.55,6288.67,57066.4,132.847,57975.2,9047,51141.7,14802.8,38306.1,5792.85,41541.5,5228.52,33117.4,9757.62
1890.16,44825.8,819.23,43381.8,8772.69,49194.5,4129.69,56594.1,1034.03,28642.1,5780.22,53820.4,133.229,52461.4,7887.18,44681.7,12360.3,40144.7,5644.78,45552.3,4520.23,35512.3,10557.2
1899.61,44509.4,575.794,43602.0,10762.8,49467.0,3897.55,45530.1,1776.64,24232.55,5123.24,50868.2,137.321,43089.3,8337.35,35679.9,10620,40907.7,7222.19,47920.2,3805.24,37416.3,11895.9
1909.06,45330.2,497.064,43264.16,12927.4,49069.3,4491.61,33271.9,2156.67,18739.05,4352.41,51773.6,132.763,35731.9,10166,29215.2,11106.5,41244.2,10666.5,49501.5,3427.78,39322,14132.5
1918.5,48687.0,515.434,44491.12,13900.9,49990.6,4764.64,22319.4,2203.08,14409.6,3599.28,56834.1,113.516,35533.2,11350.8,29488.9,12843.5,42710.5,14166,52432.1,3016.67,42148.5,16298.9
1927.95,53557.2,535.477,47215.88,13708.1,51841.3,4360.8,14106.3,2129.39,12559.7,3407.32,62036.4,91.6083,41517.8,11098.1,36144.7,14983.7,45877,16018.7,57288.7,2146.71,46253.8,17289.5
1937.4,57894.0,531.199,49587.88,13628.3,52936.7,4136.4,8715.5,2050.38,12255.25,3815.99,63863.4,82.3761,48134.3,10992.4,44739.8,16728.1,49369,16261.1,62186.7,1429.49,50545.9,17354.2
1946.85,60601.8,606.405,50044.8,14664.1,52766.3,4494.28,5231.3,1819.81,10999.75,3922.64,63413.9,85.3827,50526.6,12384.6,50103.4,18575.6,50814.8,16808,64313.3,1251.41,52750.7,18060.6
1950.0,61129.4,684.378,49667.8,15282.4,52543.7,4698.8,4311.4,1642.86,9963.5,3587.36,63367.9,86.7817,49989.1,13172.4,50553.5,19374.9,50503.5,17426,64036.7,1249.43,52646.9,18716.5

File: 3.02_averaged-data.csv
Wavelength (nm),ABS_mean,ABS_std,HDPE_mean,HDPE_std,LDPE_mean,LDPE_std,PA6_mean,PA6_std,PA66_mean,PA66_std,PC_mean,PC_std,PET_mean,PET_std,PETG_mean,PETG_std,PLA_mean,PLA_std,PMMA_mean,PMMA_std,POM_mean,POM_std,PP_mean,PP_std,PS_mean,PS_std,PVC_mean,PVC_std,TPU_mean,TPU_std
1550.0,48632.7,7367.02,46559.9,10268.1,51636.7,5313.25,47.7778,109.667,239.419,377.389,64205.5,340.329,55756.4,6819.77,54026.9,8858.29,44798.5,15404,54145.2,9729.83,42271.8,5027.69,50099.125,9669.1,57702.9,3202.74,54442.1,11481.2,30662.3,5563.62
1562.6,55519.1,5212.81,50869.3,6778.8,53215.5,6823.42,8327.7,3733.71,7899.13,3859.38,64186,220.046,55868.4,8580.04,56923.7,6001.66,51594.7,11518.5,55942.9,8385.99,48282.5,4139.53,53680.1,7519.86,59111.8,5252.44,57079.6,8322.27,38768.9,4240.93
1575.2,63291,1705.14,57491.1,1966.32,56488.7,6486.44,23947.1,7464.22,25629.7,6474.93,64916.3,71.8481,59525.2,7776.61,62412.6,1535.22,60726.5,4997.65,59729.2,5263.6,56503.25,2817.62,60459.5,3887.38,60434.4,8911.83,61194,3753.9,51159.6,2675.58
1587.8,64866.7,469.874,60694.1,1036.91,59704.8,2681.64,34508.1,7128.31,39455.2,4654.76,65401.1,23.7432,63808.6,4310.02,65529.5,15.9597,63417.4,2923.48,63332.3,2708.13,61916.625,1720.12,64566.6,1626.38,59996.2,8540.44,63288.6,1457.51,58503.5,1784.13
1600.39,64903.5,811.927,62929.6,1077.72,62356.4,842.216,40117.3,6791.11,45698.4,4243.21,62343.9,112.466,62150.8,2575.65,63559.2,185.18,63195.6,2717.79,62792.4,2855.85,64900.5,755.133,64534.8,1115.6,59997.3,8079.26,63548.6,1179.5,62306.1,905.77
1612.99,62301.5,2355.28,64561.8,796.912,63678.5,1143.52,45381.9,8020.95,49133.2,4952.28,57073.7,188.262,58849.2,3049.15,60449.4,162.952,61420.8,4025.62,57608.5,6445.2,65062.5,193.026,63554.2,1726.62,56177,8647.56,63142.6,1676.16,65370.6,106.121
1625.59,51550.9,3800.36,63905.3,661.045,63796.4,472.834,51139.2,7443.14,53859.4,3887,50192.2,308.343,57158.0,4625.64,55099.9,1963.23,57623.9,4152.2,52930.7,6669.89,61742.0,852.451,62277.8,2468.16,44896.8,7786.91,62703.6,2338.35,62879.4,195.745
1638.19,38473.9,4417.58,63816.2,860.77,64432.4,517.788,56476.6,5606.5,59591.6,2766.82,37148,435.522,45087.7,4548.47,38536.1,3678.85,56160.8,4323.91,48351.8,6967.58,56462.6,1364.5,58967.1,3967.79,33923.3,10008.2,62447,2606.46,52018.9,823.861
1650.79,29974.8,4258.25,64717.5,842.439,65102.0,994.747,60276,5467.27,63339.7,3573.43,18921.4,355.864,19131.2,1448.34,14033.9,2091.2,53186.6,5277.43,37916.2,6058.64,47013.4,1601.31,56290.2,6078.68,28208,12775,60999.7,2980.24,39421.3,1324.11
1663.39,20808.9,3519.58,62028.9,1229.78,63238.4,1889.95,61531.2,6035.59,62946.7,4214.03,4729.15,113.008,949.913,999.265,299.654,59.2595,38215.9,5199.26,20380.6,4063.85,29839.6,1185.45,56491.8,8089.38,19831,8993.13,56818,3903.64,30452.4,1418.37
1675.98,8476.95,2422.9,56783.1,2123.18,59295.1,1898.83,59593.9,5847.64,59058.5,4161.19,0.0,0.0,6805.89,3507.16,4952.77,1755.02,18284.1,4868.62,5113.54,2359.19,11245.7,370.068,52631.9,8394.26,6715.68,1937.54,49800.8,4005.63,21621.9,1225.03
1688.58,1277.62,1435.07,51870.1,3879.49,53535.4,3290.91,52126.5,5922.05,53143,4261.69,3734.17,160.799,23626.6,9314.46,14961.3,5280.93,10266.5,4673.33,488.664,1686.63,1605.06,337.818,37890.3,6369.32,356.516,336.198,38615.7,2288.62,10460.5,781.392
1701.18,1498.67,693.296,40533.5,5954.47,40309.8,3984.4,38796.8,7091.96,46106.6,5954.83,13467.5,364.388,31952.1,10670.2,17953.3,6045.46,10706.0,3928.95,2803.09,2271.36,312.5625,307.042,18430,3437.33,4959.61,6619.22,22259.5,1914.11,2051.27,323.864
1713.78,2539.29,1380.53,19418.7,5092.65,18553.2,2201.44,27589.5,8121.95,40599,7408.59,23637.8,462.613,31140.8,9463.5,15476.4,4833.68,6096.88,2721.27,4302.16,2634.32,289.0,523.043,5263.67,3181.78,11566.1,12715.3,6641.52,1462.93,21.6,28.2154
1726.38,3669.05,3066.52,2499.26,1367.41,1973.0,750.733,26020.7,8173.03,40104.7,7701.35,29047.9,491.699,31635.9,10024.1,14482.6,4635.4,633.824,2252.14,5716.07,3007.04,403.8125,330.271,853.792,4165.12,16113.5,14548.9,152.675,196.816,789.667,216.697
1738.98,7772.95,3452.47,1209.32,315.343,2023.0,589.627,29337.3,7416.82,43611.1,7826.97,32761.8,492.207,37829.2,10079.3,17835.9,5266.03,4095.88,928.105,11829.4,4352.3,2491.31,352.337,1815.125,4662.11,21707.7,14213.7,1837.97,569.459,672.067,236.741
1751.57,11453.8,2291.08,6838.61,2866.3,10059,980.41,30479.1,6192.87,46332.7,8552.43,39229.9,465.058,45565.5,8777.38,23594.2,5504.18,11969.8,3271.75,21095.2,6211.62,5373.81,584.955,5579.17,5632.26,26392.9,13545.9,4318.3,1163.78,1010.87,364.855
1764.17,12387.2,1852.92,9163.0,4834.14,13728.3,1445.73,32388.7,5256.48,46624.0,9193.29,45567.3,436.631,50566.1,7661.02,29427.9,5508.39,18444.3,5280.92,28535.2,7122.12,8116.94,921.579,9832.79,6397.2,27143.3,12748.2,5828.56,1487.94,4326.73,346.924
1776.77,14817.6,2203.43,11862.9,4830.55,16458,1928.42,38167.5,4586.43,46633.5,9098.49,49418.2,416.536,53902.1,6699.12,35560,5315.65,25940.4,7157.67,33477.8,6898.14,11037.1,1594.74,13167.4,6522.17,28061.2,12347.9,9092.83,1680.67,10480.5,1009.08
1789.37,19876.6,2471.91,17697.9,5931.31,23630.4,2812.07,43007.6,3295.19,46729.9,8721.4,53220.5,385.313,57111,5495.57,41014.8,4976.27,32393.1,8445.85,38162.8,6643.82,13162.75,2213.74,16419.1,6891.05,31881.2,12229.8,13523.0,2422.88,17194.3,1404.76
1801.97,23902.9,2010.9,20292.4,7738.76,28426.3,2830.88,44570.4,1889.62,45033.1,8484.62,56096.8,345.537,57989.2,4656.24,42590.7,5363.02,32299.3,6504.05,43883.7,6820.82,14348.4,2694,19058.25,7293.34,34507.5,11593.5,17071.5,3211.83,22379.1,1671.56
1814.57,27033.1,2186.76,18019.5,7938.3,26779.8,3799.43,46303.4,1501.72,41441.6,7863.25,55633.5,333.514,56814.2,4387.06,42302,6199.3,29780.4,3277.44,50923.4,6887.68,16143.8,3247.44,19037.625,7072.33,34580.5,10748.6,19947.2,3541.82,26145.4,2090.67
1827.17,30989.0,2514.56,17460.7,7917.1,26414.3,5699.15,48485,1704.61,37597.2,7010.74,54952.6,345.828,57933.5,4948.25,46002.2,5989.72,31730.5,3252.66,57214.8,6763.06,18367.375,3767.15,18028.625,7107.19,35766.6,10612.2,22129.6,4046.06,29918.0,2489.01
1839.76,33389.9,2810.12,21227.4,8879.06,31277,6361.21,49773.6,2739.66,34245.5,6536.4,56518.7,324.59,61013.5,4720.11,52396,4852.29,36262.6,5151.48,59132,6461.82,19684.2,4046.25,19979.125,7519.72,38000.7,10332,23181.6,4915.98,33870.7,2858.43
1852.36,33637.7,3155.67,26437.4,8951.16,36450.8,6418.03,52842.6,4402.02,31494.2,6572.83,57845.8,300.945,62285.9,4775.9,56372.9,3948.13,40171.3,7536.51,57919.1,6400,20404.625,4175.87,24868.4,7450.79,38451.4,9743.52,24845.8,5590.95,37696.3,3401.07
1864.96,35612.2,3293.2,32226.7,7972.19,40664.6,6583.74,57730.4,5485.45,29779.1,6536.7,58125.4,319.12,62830.3,5320.36,58770.3,3282.7,44477.0,9202.04,58272.5,6783.18,21309.6,4288.89,29781,6969.11,38868.6,9471.43,28689.5,6096.08,41934.7,3999.82
1877.56,39093.7,3441.46,38531.3,7715.85,46025.9,5361.28,58213.9,6041.8,28529.3,6462.78,57554.5,247.007,62825.5,4940.94,59192.5,3337.78,46205.2,9989.81,57585.9,6696.68,22649.4,4346.82,33550.3,6716.95,42098.9,8796.45,33363.4,6684.82,44973.7,4466.1
1890.16,39246,3954.6,42738.3,7780.98,49734.1,3676.27,50718.7,5499.01,25617.3,6327.74,54254.3,359.837,57053.4,4774.63,52180.1,5748.1,39750.3,11139.5,48727.3,6313.83,24513.2,4373.7,36511.2,6640.86,46089.4,7296.44,37299.2,7067.1,42809.5,4808.72
1902.76,36821.8,5277.07,44036.1,7373.93,49840.4,3612.2,38203.4,3734.1,20086.2,5237.53,51482.4,611.147,47550.2,7148.54,41843.7,9455.92,29347.5,13171,35771.9,8344.49,26036.3,4489.51,39261.6,6708.15,48461.9,5711.07,40970.8,7392.04,35826.7,5012.8
1915.35,38199.5,6359.33,45455.8,7345.64,50233.1,4240.04,25124.6,2246.28,14469.5,3664.21,55359,378.912,44992.2,9030.14,40709.5,10569.4,27086.2,13739.9,32181.5,9699.38,27771.25,4655.91,43096.4,7039.95,51133.3,4357.34,45485,8359.13,30529.4,5022.99
1927.95,44981,5849.73,48586.6,7572.53,52377.7,3843.52,15033.8,1802.14,12104.1,2937.76,61868.7,202.312,50908,6787.71,48739.5,8155.53,37103.4,11605.1,41663.1,9000.19,33605.75,4698.54,48412.4,7187.77,55795.4,3046.64,51114,9510.55,31188.3,5027.52
1940.55,52047.7,4719.58,51291.2,7344.07,53379.3,3663.95,9393.37,2005.1,12010.8,3248.33,63472.4,268.006,56505.0,3259.19,55155.0,5439.31,50250.3,9272.53,54021.3,7447.45,43266.6,4571.39,53056.5,6928.67,60143.3,3364.77,56312.2,9905.74,34938.2,5128.99
1950.0,54478.3,4667.99,51520.4,7340.07,53136,4121.33,6892.96,2273.47,10408.8,3014.29,63095.9,245.099,57724.3,3004.35,56692.5,5055.36,54532.5,9533.81,58538.9,7157.59,47911.25,4480.83,54318.3,7066.36,61123.9,3118.85,58009.5,9805.47,36579.1,5092.21